10  !No of Header lines including this one    
c                  
c  spectral base: SPECTRA bands          
c                  
c  This file contains PROSPECT absorption coefficients that are constant
c  modified from Baret COEFSPE.XLS Kw water changed    
c                  
c  Wavel.  Refr.index  Kdm  Kab  Kw  Ks  H2O_refr  H2O_abko  
c  nm  leaf  dry  matter  Chlorohyll  Water  senescense    
c                  
201  !  number  of  spectral  bands        
0.400  1.51352  103.10330  0.04730  0.00158  0.52459  1.33689   0.00158    
0.410  1.50838   77.26552  0.04786  0.00142  0.51719  1.33689   0.00142    
0.420  1.50341   42.90394  0.04681  0.00126  0.50719  1.33689   0.00126    
0.430  1.50026   23.86230  0.04618  0.00109  0.49687  1.33689   0.00109    
0.440  1.49790   15.12663  0.04188  0.00094  0.48524  1.33689   0.00094    
0.450  1.49554   10.54250  0.03569  0.00081  0.47320  1.33689   0.00081
0.460  1.49369    7.82997  0.03439  0.00076  0.46113  1.33573   0.00076
0.470  1.49225    6.86180  0.03352  0.00073  0.45043  1.33482   0.00073
0.480  1.49097    6.63863  0.03215  0.00071  0.43968  1.33413   0.00071
0.490  1.48958    6.43493  0.02950  0.00073  0.42725  1.33363   0.00073
0.500  1.48799    6.23297  0.02435  0.00092  0.41508  1.33329   0.00092
0.510  1.48601    6.03349  0.01679  0.00127  0.40555  1.33308   0.00127
0.520  1.48355    5.84139  0.01110  0.00157  0.39618  1.33298   0.00157
0.530  1.48068    5.64577  0.00893  0.00176  0.38477  1.33295   0.00176
0.540  1.47742    5.45361  0.00822  0.00210  0.36651  1.33296   0.00210
0.550  1.47389    5.27224  0.00774  0.00244  0.35165  1.33299   0.00244
0.560  1.47010    5.09257  0.00822  0.00287  0.33901  1.33300   0.00287
0.570  1.46620    4.91259  0.00963  0.00343  0.32186  1.33298   0.00343
0.580  1.46241    4.73408  0.01110  0.00443  0.30198  1.33293   0.00443
0.590  1.45889    4.55845  0.01229  0.00637  0.28232  1.33286   0.00637
0.600  1.45591    4.38554  0.01331  0.00963  0.26377  1.33278   0.00963
0.610  1.45332    4.21285  0.01503  0.01240  0.24647  1.33268   0.01240
0.620  1.45105    4.04283  0.01643  0.01400  0.23045  1.33257   0.01400
0.630  1.44924    3.86960  0.01709  0.01500  0.21578  1.33246   0.01500
0.640  1.44805    3.70323  0.01916  0.01570  0.20208  1.33235   0.01570
0.650  1.44732    3.54365  0.02294  0.01670  0.18910  1.33225   0.01670
0.660  1.44683    3.37546  0.02906  0.01940  0.17667  1.33215   0.01940
0.670  1.44640    3.21018  0.03417  0.02100  0.16390  1.33208   0.02100
0.680  1.44582    3.04944  0.03314  0.02300  0.15047  1.33203   0.02300
0.690  1.44515    2.87904  0.02235  0.02650  0.13719  1.33200   0.02650
0.700  1.44436    2.70188  0.01042  0.03858  0.12474  1.33200   0.03858
0.710  1.44321    2.54618  0.00464  0.04129  0.11335  1.33200   0.04129
0.720  1.44164    2.46917  0.00222  0.04429  0.10249  1.33200   0.04429
0.730  1.43980    2.41321  0.00100  0.05270  0.09224  1.33200   0.05270
0.740  1.43804    2.36585  0.00041  0.06121  0.08261  1.33200   0.06121
0.750  1.43655    2.31914  0.00013  0.06343  0.07410  1.33200   0.06343
0.760  1.43525    2.28151  0.00003  0.06232  0.06664  1.33177   0.06232
0.770  1.43439    2.25085  0.00000  0.06014  0.05978  1.33106   0.06014
0.780  1.43405    2.22025  0.00000  0.05809  0.05303  1.33097   0.05809
0.790  1.43415    2.18965  0.00000  0.05624  0.04709  1.33103   0.05624
0.800  1.43448    2.16210  0.00000  0.05459  0.04183  1.33097   0.05459
0.810  1.43469    2.14021  0.00000  0.05357  0.03709  1.33096   0.05357
0.820  1.43472    2.10037  0.00000  0.05520  0.03293  1.33015   0.05520
0.830  1.43478    2.05638  0.00000  0.06364  0.02924  1.32990   0.06364
0.840  1.43478    2.01699  0.00000  0.07238  0.02594  1.33005   0.07238
0.850  1.43471    1.98688  0.00000  0.07719  0.02296  1.32998   0.07719
0.860  1.43461    1.95131  0.00000  0.08054  0.02034  1.32999   0.08054
0.870  1.43446    1.90756  0.00000  0.08558  0.01807  1.33007   0.08558
0.880  1.43423    1.86190  0.00000  0.09257  0.01607  1.32980   0.09257
0.890  1.43395    1.81885  0.00000  0.10011  0.01433  1.32920   0.10011
0.900  1.43366    1.76717  0.00000  0.10803  0.01290  1.32892   0.10803
0.910  1.43338    1.71153  0.00000  0.12204  0.01171  1.32900   0.12204
0.920  1.43306    1.69000  0.00000  0.14891  0.01061  1.32903   0.14891
0.930  1.43266    1.68121  0.00000  0.19048  0.00941  1.32899   0.19048
0.940  1.43224    1.69831  0.00000  0.25812  0.00831  1.32898   0.25812
0.950  1.43183    1.71540  0.00000  0.38054  0.00739  1.32829   0.38054
0.960  1.43135    1.73250  0.00000  0.54281  0.00646  1.32796   0.54281
0.970  1.43080    1.74960  0.00000  0.62339  0.00553  1.32802   0.62339
0.980  1.43017    1.76669  0.00000  0.61609  0.00460  1.32800   0.61609
0.990  1.42948    1.78379  0.00000  0.57734  0.00367  1.32800   0.57734
1.000  1.42872    1.80089  0.00000  0.51656  0.00275  1.32800   0.51656
1.010  1.42788    1.81798  0.00000  0.44168  0.00190  1.32800   0.44168
1.020  1.42699    1.83508  0.00000  0.36675  0.00130  1.32800   0.36675
1.030  1.42607    1.85218  0.00000  0.30765  0.00089  1.32800   0.30765
1.040  1.42509    1.86928  0.00000  0.26250  0.00063  1.32800   0.26250
1.050  1.42404    1.88637  0.00000  0.23103  0.00042  1.32800   0.23103
1.060  1.42295    1.93533  0.00000  0.21210  0.00029  1.32807   0.21210
1.070  1.42183    2.10984  0.00000  0.20584  0.00021  1.32794   0.20584
1.080  1.42066    2.29475  0.00000  0.21384  0.00014  1.32739   0.21384
1.090  1.41948    2.44807  0.00000  0.23273  0.00010  1.32700   0.23273
1.100  1.41831    2.54041  0.00000  0.26007  0.00007  1.32699   0.26007
1.110  1.41713    2.55813  0.00000  0.30010  0.00005  1.32701   0.30010
1.120  1.41595    2.57820  0.00000  0.37126  0.00003  1.32704   0.37126
1.130  1.41481    2.60972  0.00000  0.52485  0.00002  1.32650   0.52485
1.140  1.41370    2.66994  0.00000  0.82567  0.00001  1.32596   0.82567
1.150  1.41258    2.75293  0.00000  1.17202  0.00001  1.32599   1.17202
1.160  1.41148    2.73195  0.00000  1.36617  0.00000  1.32601   1.36617
1.170  1.41042    2.88378  0.00000  1.44001  0.00000  1.32605   1.44001
1.180  1.40936    3.10630  0.00000  1.46925  0.00000  1.32571   1.46925
1.190  1.40831    3.14928  0.00000  1.48372  0.00000  1.32507   1.48372
1.200  1.40730    3.12783  0.00000  1.48690  0.00000  1.32493   1.48690
1.210  1.40629    3.07572  0.00000  1.47535  0.00000  1.32502   1.47535
1.220  1.40524    2.94787  0.00000  1.44925  0.00000  1.32500   1.44925
1.230  1.40417    2.83460  0.00000  1.41297  0.00000  1.32498   1.41297
1.240  1.40311    2.76341  0.00000  1.36951  0.00000  1.32505   1.36951
1.250  1.40205    2.69935  0.00000  1.32392  0.00000  1.32494   1.32392
1.260  1.40100    2.71176  0.00000  1.28840  0.00000  1.32437   1.28840
1.270  1.39994    2.68448  0.00000  1.28575  0.00000  1.32396   1.28575
1.280  1.39887    2.57597  0.00000  1.33486  0.00000  1.32397   1.33486
1.290  1.39781    2.52979  0.00000  1.44353  0.00000  1.32400   1.44353
1.300  1.39680    2.53186  0.00000  1.61242  0.00000  1.32402   1.61242
1.310  1.39579    2.51269  0.00000  1.82835  0.00000  1.32406   1.82835
1.320  1.39474    2.49786  0.00000  2.07324  0.00000  1.32377   2.07324
1.330  1.39370    2.50424  0.00000  2.47817  0.00000  1.32319   2.47817
1.340  1.39269    2.56512  0.00000  3.27305  0.00000  1.32290   3.27305
1.350  1.39171    2.67915  0.00000  4.32477  0.00000  1.32298   4.32477
1.360  1.39070    2.82728  0.00000  5.31664  0.00000  1.32311   5.31664
1.370  1.38965    2.96559  0.00000  6.18296  0.00000  1.32296   6.18296
1.380  1.38859    3.05050  0.00000  7.46577  0.00000  1.32245   7.46577
1.390  1.38753    3.14580  0.00000 10.77665  0.00000  1.32203  10.77665
1.400  1.38646    3.31173  0.00000 16.50252  0.00000  1.32200  16.50252
1.410  1.38533    3.73228  0.00000 22.34003  0.00000  1.32190  22.34003
1.420  1.38413    4.50499  0.00000 26.49219  0.00000  1.32144  26.49219
1.430  1.38287    5.43659  0.00000 28.66118  0.00000  1.32102  28.66118
1.440  1.38159    6.19157  0.00000 29.18123  0.00000  1.32097  29.18123
1.450  1.38025    6.62080  0.00000 28.93767  0.00000  1.32110  28.93767
1.460  1.37883    6.85141  0.00000 28.27496  0.00000  1.32117  28.27496
1.470  1.37734    6.97290  0.00000 27.00626  0.00000  1.32100  27.00626
1.480  1.37580    6.99866  0.00000 24.98048  0.00000  1.32056  24.98048
1.490  1.37422    7.07087  0.00000 22.42515  0.00000  1.32012  22.42515
1.500  1.37260    7.11862  0.00000 19.78226  0.00000  1.31999  19.78226
1.510  1.37096    7.04083  0.00000 17.38490  0.00000  1.32002  17.38490
1.520  1.36935    6.92889  0.00000 15.43757  0.00000  1.31981  15.43757
1.530  1.36776    6.77635  0.00000 13.96119  0.00000  1.31934  13.96119
1.540  1.36613    6.65959  0.00000 12.78390  0.00000  1.31900  12.78390
1.550  1.36447    6.63278  0.00000 11.75747  0.00000  1.31899  11.75747
1.560  1.36282    6.58679  0.00000 10.85197  0.00000  1.31901  10.85197
1.570  1.36117    6.54295  0.00000 10.06645  0.00000  1.31874  10.06645
1.580  1.35953    6.53670  0.00000  9.38323  0.00000  1.31828   9.38323
1.590  1.35793    6.48665  0.00000  8.77322  0.00000  1.31798   8.77322
1.600  1.35633    6.34468  0.00000  8.22370  0.00000  1.31796   8.22370
1.610  1.35469    6.15786  0.00000  7.74882  0.00000  1.31800   7.74882
1.620  1.35306    5.98510  0.00000  7.36399  0.00000  1.31782   7.36399
1.630  1.35147    5.86870  0.00000  7.06196  0.00000  1.31742   7.06196
1.640  1.34993    5.78878  0.00000  6.81972  0.00000  1.31696   6.81972
1.650  1.34840    5.78895  0.00000  6.62105  0.00000  1.31657   6.62105
1.660  1.34687    5.93205  0.00000  6.46812  0.00000  1.31623   6.46812
1.670  1.34535    6.23781  0.00000  6.36897  0.00000  1.31590   6.36897
1.680  1.34388    6.66790  0.00000  6.33011  0.00000  1.31556   6.33011
1.690  1.34248    7.24333  0.00000  6.35546  0.00000  1.31520   6.35546
1.700  1.34113    7.85350  0.00000  6.44907  0.00000  1.31479   6.44907
1.710  1.33982    8.33967  0.00000  6.62033  0.00000  1.31440   6.62033
1.720  1.33856    8.71130  0.00000  6.88382  0.00000  1.31410   6.88382
1.730  1.33737    8.87178  0.00000  7.25062  0.00000  1.31396   7.25062
1.740  1.33626    8.68070  0.00000  7.71032  0.00000  1.31396   7.71032
1.750  1.33521    8.45986  0.00000  8.23498  0.00000  1.31399   8.23498
1.760  1.33419    8.31060  0.00000  8.79304  0.00000  1.31395   8.79304
1.770  1.33320    8.05203  0.00000  9.34168  0.00000  1.31374   9.34168
1.780  1.33225    7.74628  0.00000  9.82939  0.00000  1.31334   9.82939
1.790  1.33136    7.48222  0.00000 10.20033  0.00000  1.31272  10.20033
1.800  1.33054    7.29937  0.00000 10.36435  0.00000  1.31213  10.36435
1.810  1.32973    7.17006  0.00000 10.31465  0.00000  1.31195  10.31465
1.820  1.32890    7.04135  0.00000 10.47145  0.00000  1.31198  10.47145
1.830  1.32806    6.86487  0.00000 10.86303  0.00000  1.31182  10.86303
1.840  1.32728    6.66845  0.00000 10.69514  0.00000  1.31149  10.69514
1.850  1.32658    6.49481  0.00000 11.57493  0.00000  1.31109  11.57493
1.860  1.32588    6.27555  0.00000 17.04910  0.00000  1.31071  17.04910
1.870  1.32517    6.05756  0.00000 26.47156  0.00000  1.31040  26.47156
1.880  1.32446    5.89337  0.00000 36.66709  0.00000  1.31015  36.66709
1.890  1.32377    6.11287  0.00000 45.19828  0.00000  1.30995  45.19828
1.900  1.32312    7.55011  0.00000 51.08452  0.00000  1.30977  51.08452
1.910  1.32248    9.50086  0.00000 54.68042  0.00000  1.30957  54.68042
1.920  1.32183   11.30854  0.00000 56.84093  0.00000  1.30928  56.84093
1.930  1.32113   12.49924  0.00000 57.92464  0.00000  1.30884  57.92464
1.940  1.32044   12.73849  0.00000 57.93405  0.00000  1.30826  57.93405
1.950  1.31979   12.71854  0.00000 57.12597  0.00000  1.30763  57.12597
1.960  1.31913   12.47610  0.00000 55.83019  0.00000  1.30707  55.83019
1.970  1.31842   12.17032  0.00000 54.21911  0.00000  1.30664  54.21911
1.980  1.31767   12.04499  0.00000 52.27138  0.00000  1.30636  52.27138
1.990  1.31690   11.87555  0.00000 49.95250  0.00000  1.30616  49.95250
2.000  1.31608   11.83518  0.00000 47.36707  0.00000  1.30600  47.36707
2.010  1.31524   12.25446  0.00000 44.73690  0.00000  1.30583  44.73690
2.020  1.31436   13.13050  0.00000 42.20420  0.00000  1.30562  42.20420
2.030  1.31342   14.51396  0.00000 39.80963  0.00000  1.30536  39.80963
2.040  1.31240   16.34350  0.00000 37.52705  0.00000  1.30503  37.52705
2.050  1.31136   18.36770  0.00000 35.30236  0.00000  1.30461  35.30236
2.060  1.31028   20.23671  0.00000 33.14537  0.00000  1.30414  33.14537
2.070  1.30917   21.36775  0.00000 31.10743  0.00000  1.30363  31.10743
2.080  1.30802   21.93450  0.00000 29.24291  0.00000  1.30315  29.24291
2.090  1.30684   22.48116  0.00000 27.59752  0.00000  1.30270  27.59752
2.100  1.30566   23.11771  0.00000 26.17954  0.00000  1.30228  26.17954
2.110  1.30448   23.60760  0.00000 24.96455  0.00000  1.30187  24.96455
2.120  1.30331   23.80131  0.00000 23.91573  0.00000  1.30141  23.91573
2.130  1.30210   23.97280  0.00000 22.98954  0.00000  1.30088  22.98954
2.140  1.30087   24.21918  0.00000 22.15660  0.00000  1.30026  22.15660
2.150  1.29968   24.44876  0.00000 21.42015  0.00000  1.29956  21.42015
2.160  1.29849   24.49996  0.00000 20.79229  0.00000  1.29881  20.79229
2.170  1.29726   24.34971  0.00000 20.28508  0.00000  1.29805  20.28508
2.180  1.29605   23.98770  0.00000 19.90991  0.00000  1.29728  19.90991
2.190  1.29487   23.34666  0.00000 19.67739  0.00000  1.29655  19.67739
2.200  1.29367   22.62860  0.00000 19.59662  0.00000  1.29588  19.59662
2.210  1.29243   21.99178  0.00000 19.66853  0.00000  1.29527  19.66853
2.220  1.29118   21.46299  0.00000 19.88112  0.00000  1.29469  19.88112
2.230  1.28996   21.47340  0.00000 20.21818  0.00000  1.29413  20.21818
2.240  1.28878   22.54965  0.00000 20.66279  0.00000  1.29353  20.66279
2.250  1.28764   24.72695  0.00000 21.19768  0.00000  1.29288  21.19768
2.260  1.28652   27.48314  0.00000 21.80576  0.00000  1.29214  21.80576
2.270  1.28540   30.28236  0.00000 22.47030  0.00000  1.29128  22.47030
2.280  1.28430   32.47155  0.00000 23.17980  0.00000  1.29026  23.17980
2.290  1.28323   34.30419  0.00000 23.94457  0.00000  1.28913  23.94457
2.300  1.28217   35.89518  0.00000 24.78838  0.00000  1.28794  24.78838
2.310  1.28111   36.77108  0.00000 25.73385  0.00000  1.28675  25.73385
2.320  1.28014   36.50248  0.00000 26.80051  0.00000  1.28563  26.80051
2.330  1.27931   35.85867  0.00000 28.00195  0.00000  1.28463  28.00195
2.340  1.27861   35.99648  0.00000 29.33185  0.00000  1.28378  29.33185
2.350  1.27783   36.11919  0.00000 30.76312  0.00000  1.28303  30.76312
2.360  1.27689   35.60366  0.00000 32.26600  0.00000  1.28303  32.26600
2.370  1.27595   34.65321  0.00000 33.81236  0.00000  1.28303  33.81236
2.380  1.27509   34.02239  0.00000 35.37676  0.00000  1.28303  35.37676
2.390  1.27434   33.71009  0.00000 36.94800  0.00000  1.28303  36.94800
2.400  1.27378   33.35571  0.00000 38.54951  0.00000  1.28303  38.54951
